Folder: spectroscopy-exercise/example_data

Note: README.md
# spectroscopy-channel-calibration
Calibrating raw data from EDS spectroscopy in jupyter notebooks

File: EDS-SEM_GaSb.msa
#FORMAT      : EMSA/MAS Spectral Data File
#VERSION     : 1.0
#DATE        :
#TIME        :
#OWNER       :
#NPOINTS     : 1024
#NCOLUMNS    : 1
#DATATYPE    : Y
#SIGNALTYPE  :
#XPERCHAN    : 1.0
#OFFSET      : 0.0
#XLABEL      :
#XUNITS      : channel
#COMMENT     : File created by HyperSpy version 1.3
#TITLE       :
#SPECTRUM    : Spectral Data Starts Here
0.000000,
2.000000,
98,
1551,
2138,
5886,
11369,
11779,
21518,
14592,
7606,
8025,
10263,
9713,
13825,
27576,
116262,
81187,
14030,
9197,
9486,
10556,
10405,
10340,
11140,
11749,
11762,
10800,
11125,
11367,
11336,
11160,
10598,
10343,
10370,
10233,
10059,
9860,
9800,
9781,
9337,
9884,
12845,
12356,
9782,
10488,
20706,
89967,
110192,
33608,
45775,
62932,
30851,
19461,
22495,
12090,
9791,
12078,
8383,
7251,
8730,
7943,
6702,
5670,
5724,
5792,
5468,
5199,
5202,
5000,
4903,
4777,
4649,
4737,
4554,
4569,
4500,
4407,
4368,
4266,
4170,
4172,
4060,
3962,
3932,
3825,
3814,
3828,
3747,
3683,
3692,
3649,
3925,
4125,
3739,
3798,
3904,
3625,
3475,
3309,
3194,
3046,
2997,
3007,
2847,
2735,
2759,
2615,
2572,
2580,
2538,
2477,
2358,
2332,
2332,
2413,
3726,
9453,
14746,
9503,
3551,
2222,
2021,
1929,
1911,
1926,
1814,
1830,
1830,
2127,
3009,
3372,
2543,
1754,
1589,
1495,
1440,
1384,
1341,
1300,
1291,
1308,
1285,
1291,
1219,
1198,
1167,
1160,
1106,
1039,
1042,
967,
976,
945,
912,
849,
864,
854,
831,
772,
767,
757,
747,
840,
757,
675,
666,
659,
595,
558,
506,
480,
470,
449,
440,
422,
411,
378,
365,
340,
291,
271,
243,
234,
220,
196,
183,
165,
140,
113,
103,
103,
93,
79,
92,
83,
84,
80,
73,
65,
69,
64,
76,
61,
64,
65,
59,
56,
72,
57,
50,
54,
52,
48,
43,
38,
42,
46,
43,
44,
32,
40,
38,
23,
40,
33,
25,
25,
28,
26,
24,
18,
27,
32,
38,
26,
20,
20,
20,
17,
22,
21,
16,
22,
13,
17,
11,
16,
14,
14,
12,
14,
10,
13,
14,
11,
13,
#ENDOFDATA   : End Of Data and File

File: unknown_not_calibrated.msa
#FORMAT      : EMSA/MAS Spectral Data File
#VERSION     : 1.0
#DATE        :
#TIME        :
#OWNER       :
#NPOINTS     : 2048
#NCOLUMNS    : 1
#DATATYPE    : Y
#SIGNALTYPE  :
#XPERCHAN    : 1.0
#OFFSET      : 0.0
#XLABEL      :
#XUNITS      : channel
#COMMENT     : File created by HyperSpy version 1.3
#TITLE       :
#SPECTRUM    : Spectral Data Starts Here
0.000000,
0.000000,
6.000000,
1981,
739,
11,
18,
33,
15,
57,
37,
16,
10,
16,
29,
33,
84,
51,
238,
492,
37,
23,
20,
18,
36,
33,
25,
36,
55,
60,
73,
42,
46,
56,
42,
43,
30,
44,
45,
43,
50,
61,
54,
63,
57,
48,
39,
47,
103,
97,
53,
45,
82,
300,
1934,
1449,
186,
524,
1234,
574,
194,
277,
269,
72,
66,
155,
79,
50,
86,
61,
38,
26,
31,
31,
33,
36,
24,
32,
29,
27,
35,
30,
35,
26,
38,
32,
31,
34,
33,
35,
28,
31,
31,
40,
59,
38,
37,
26,
31,
32,
32,
44,
50,
35,
39,
25,
34,
25,
25,
30,
29,
27,
34,
36,
29,
51,
230,
851,
1021,
350,
69,
29,
28,
31,
35,
34,
28,
29,
60,
123,
174,
108,
82,
371,
1346,
1799,
759,
149,
30,
18,
24,
23,
24,
29,
25,
25,
29,
44,
147,
255,
238,
83,
27,
20,
21,
23,
19,
19,
16,
15,
14,
18,
21,
18,
19,
21,
30,
18,
20,
17,
16,
13,
17,
12,
13,
14,
17,
10,
16,
14,
12,
19,
16,
17,
16,
16,
12,
16,
14,
17,
12,
20,
14,
13,
12,
13,
11,
17,
12,
15,
11,
11,
13,
9.000000,
13,
16,
16,
13,
12,
15,
13,
9.000000,
15,
6.000000,
9.000000,
10,
9.000000,
11,
8.000000,
9.000000,
10,
13,
14,
5.000000,
9.000000,
10,
10,
9.000000,
5.000000,
11,
10,
10,
7.000000,
13,
11,
4.000000,
11,
10,
11,
10,
5.000000,
10,
7.000000,
7.000000,
6.000000,
9.000000,
10,
8.000000,
5.000000,
7.000000,
6.000000,
6.000000,
10,
9.000000,
3.000000,
5.000000,
10,
9.000000,
8.000000,
8.000000,
7.000000,
3.000000,
9.000000,
3.000000,
8.000000,
4.000000,
5.000000,
6.000000,
8.000000,
7.000000,
3.000000,
10,
5.000000,
5.000000,
6.000000,
6.000000,
4.000000,
6.000000,
7.000000,
9.000000,
4.000000,
7.000000,
5.000000,
5.000000,
5.000000,
6.000000,
5.000000,
3.000000,
5.000000,
6.000000,
5.000000,
2.000000,
4.000000,
5.000000,
#ENDOFDATA   : End Of Data and File