Folder: spectroscopy-exercise/Lab3_data

Note: README.md
# spectroscopy-channel-calibration
Calibrating raw data from EDS spectroscopy in jupyter notebooks

File: TEM_known_NiO_on_Mo_A.emsa
#FORMAT      : EMSA/MAS Spectral Data File
#VERSION     : 1.0
#TITLE       : Spectrum 1
#DATE        : 31-JAN-2022
#TIME        : 02:39
#OWNER       :
#NPOINTS     : 2048.0
#NCOLUMNS    : 1.0
#XUNITS      : keV
#YUNITS      : counts
#DATATYPE    : XY
#XPERCHAN    : 0.01
#OFFSET      : -0.2
#SIGNALTYPE  : EDS
#CHOFFSET    : 20.0
#LIVETIME    : 120.0
#REALTIME    : 160.078
#BEAMKV      : 200.0
#MAGCAM      : 100000.0
#XTILTSTGE   : 0.0
#AZIMANGLE   : 0.0
#ELEVANGLE   : 18.6
#XPOSITION mm: 0.0000
#YPOSITION mm: 0.0000
#ZPOSITION mm: 0.0000
##OXINSTPT   : 4
##OXINSTSTROB: 47.27
##OXINSTELEMS: 26,14,50
##OXINSTLABEL: 26, 6.404, Fe
##OXINSTLABEL: 26, 7.058, Fe
##OXINSTLABEL: 26, 0.705, Fe
##OXINSTLABEL: 26, 0.628, Fe
##OXINSTLABEL: 14, 1.740, Si
##OXINSTLABEL: 50, 3.444, Sn
##OXINSTLABEL: 50, 3.666, Sn
##OXINSTLABEL: 50, 3.905, Sn
##OXINSTLABEL: 50, 3.272, Sn
##OXINSTLABEL: 50, 4.131, Sn
##OXINSTLABEL: 50, 4.377, Sn
##OXINSTLABEL: 50, 3.045, Sn
##OXINSTLABEL: 50, 0.397, Sn
#SPECTRUM    : Spectral Data Starts Here
-0.20000, 0.0
-0.13000, 0.0
-0.06000, 13.0
0.01000, 3844.0
0.08000, 2658.0
0.15000, 1929.0
0.22000, 8173.0
0.29000, 40210.0
0.36000, 1188.0
0.43000, 1977.0
0.50000, 35518.0
0.57000, 10639.0
0.64000, 1993.0
0.71000, 8380.0
0.78000, 12905.0
0.85000, 97788.0
0.92000, 12999.0
0.99000, 1771.0
1.06000, 1464.0
1.13000, 1596.0
1.20000, 1336.0
1.27000, 1301.0
1.34000, 1436.0
1.41000, 1423.0
1.48000, 1328.0
1.55000, 1297.0
1.62000, 1283.0
1.69000, 1674.0
1.76000, 2124.0
1.83000, 1226.0
1.90000, 1094.0
1.97000, 1091.0
2.04000, 1087.0
2.11000, 1052.0
2.18000, 1033.0
2.25000, 1509.0
2.32000, 1905.0
2.39000, 1477.0
2.46000, 1171.0
2.53000, 1059.0
2.60000, 1142.0
2.67000, 1091.0
2.74000, 874.0
2.81000, 886.0
2.88000, 829.0
2.95000, 822.0
3.02000, 782.0
3.09000, 717.0
3.16000, 676.0
3.23000, 649.0
3.30000, 640.0
3.37000, 608.0
3.44000, 567.0
3.51000, 593.0
3.58000, 606.0
3.65000, 580.0
3.72000, 553.0
3.79000, 556.0
3.86000, 523.0
3.93000, 542.0
4.00000, 543.0
4.07000, 494.0
4.14000, 518.0
4.21000, 510.0
4.28000, 472.0
4.35000, 477.0
4.42000, 491.0
4.49000, 493.0
4.56000, 475.0
4.63000, 467.0
4.70000, 457.0
4.77000, 434.0
4.84000, 423.0
4.91000, 451.0
4.98000, 428.0
5.05000, 385.0
5.12000, 365.0
5.19000, 404.0
5.26000, 403.0
5.33000, 403.0
5.40000, 426.0
5.47000, 411.0
5.54000, 359.0
5.61000, 409.0
5.68000, 580.0
5.75000, 605.0
5.82000, 411.0
5.89000, 369.0
5.96000, 336.0
6.03000, 346.0
6.10000, 334.0
6.17000, 345.0
6.24000, 342.0
6.31000, 415.0
6.38000, 594.0
6.45000, 534.0
6.52000, 401.0
6.59000, 326.0
6.66000, 324.0
6.73000, 325.0
6.80000, 345.0
6.87000, 434.0
6.94000, 457.0
7.01000, 428.0
7.08000, 467.0
7.15000, 481.0
7.22000, 657.0
7.29000, 2537.0
7.36000, 25044.0
7.43000, 87795.0
7.50000, 83077.0
7.57000, 21467.0
7.64000, 2238.0
7.71000, 984.0
7.78000, 743.0
7.85000, 468.0
7.92000, 579.0
7.99000, 785.0
8.06000, 884.0
8.13000, 2961.0
8.20000, 10228.0
8.27000, 13326.0
8.34000, 5783.0
8.41000, 1112.0
8.48000, 423.0
8.55000, 354.0
8.62000, 285.0
8.69000, 254.0
8.76000, 284.0
8.83000, 252.0
8.90000, 234.0
8.97000, 249.0
9.04000, 294.0
9.11000, 325.0
9.18000, 280.0
9.25000, 256.0
9.32000, 249.0
9.39000, 228.0
9.46000, 227.0
9.53000, 244.0
9.60000, 243.0
9.67000, 276.0
9.74000, 276.0
9.81000, 234.0
9.88000, 240.0
9.95000, 231.0
10.02000, 244.0
10.09000, 231.0
10.16000, 209.0
10.23000, 224.0
10.30000, 225.0
10.37000, 216.0
10.44000, 239.0
10.51000, 230.0
10.58000, 211.0
10.65000, 195.0
10.72000, 229.0
10.79000, 211.0
10.86000, 195.0
10.93000, 208.0
11.00000, 199.0
11.07000, 212.0
11.14000, 199.0
11.21000, 211.0
11.28000, 217.0
11.35000, 228.0
11.42000, 239.0
11.49000, 240.0
11.56000, 235.0
11.63000, 200.0
11.70000, 202.0
11.77000, 187.0
11.84000, 177.0
11.91000, 195.0
11.98000, 198.0
12.05000, 188.0
12.12000, 176.0
12.19000, 179.0
12.26000, 185.0
12.33000, 174.0
12.40000, 193.0
12.47000, 172.0
12.54000, 152.0
12.61000, 168.0
12.68000, 176.0
12.75000, 172.0
12.82000, 179.0
12.89000, 166.0
12.96000, 184.0
13.03000, 173.0
13.10000, 168.0
13.17000, 159.0
13.24000, 172.0
13.31000, 154.0
13.38000, 155.0
13.45000, 159.0
13.52000, 143.0
13.59000, 143.0
13.66000, 171.0
13.73000, 141.0
13.80000, 140.0
13.87000, 147.0
13.94000, 154.0
14.01000, 132.0
14.08000, 144.0
14.15000, 128.0
14.22000, 152.0
14.29000, 124.0
14.36000, 129.0
14.43000, 132.0
14.50000, 146.0
14.57000, 128.0
14.64000, 148.0
14.71000, 121.0
14.78000, 233.0
14.85000, 481.0
14.92000, 644.0
14.99000, 520.0
15.06000, 267.0
15.13000, 152.0
15.20000, 129.0
15.27000, 112.0
15.34000, 110.0
15.41000, 116.0
15.48000, 116.0
15.55000, 137.0
15.62000, 197.0
15.69000, 267.0
15.76000, 248.0
15.83000, 199.0
15.90000, 116.0
15.97000, 104.0
16.04000, 113.0
16.11000, 99.0
16.18000, 102.0
16.25000, 117.0
16.32000, 105.0
16.39000, 115.0
16.46000, 116.0
16.53000, 113.0
16.60000, 104.0
16.67000, 104.0
16.74000, 111.0
16.81000, 90.0
16.88000, 91.0
16.95000, 87.0
17.02000, 100.0
17.09000, 110.0
17.16000, 169.0
17.23000, 434.0
17.30000, 885.0
17.37000, 1338.0
17.44000, 1351.0
17.51000, 906.0
17.58000, 368.0
17.65000, 152.0
17.72000, 109.0
17.79000, 82.0
17.86000, 92.0
17.93000, 68.0
18.00000, 81.0
18.07000, 80.0
18.14000, 75.0
18.21000, 92.0
18.28000, 96.0
18.35000, 76.0
18.42000, 74.0
18.49000, 80.0
18.56000, 70.0
18.63000, 69.0
18.70000, 86.0
18.77000, 69.0
18.84000, 72.0
18.91000, 78.0
18.98000, 71.0
19.05000, 74.0
19.12000, 65.0
19.19000, 64.0
19.26000, 70.0
19.33000, 83.0
19.40000, 116.0
19.47000, 201.0
19.54000, 285.0
19.61000, 214.0
19.68000, 157.0
19.75000, 87.0
19.82000, 79.0
19.89000, 88.0
19.96000, 88.0
20.03000, 65.0
20.10000, 41.0
20.17000, 51.0
20.24000, 50.0
20.27000, 47.0
#ENDOFDATA   :

File: TEM_known_NiO_on_Mo_B.emsa
#FORMAT      : EMSA/MAS Spectral Data File
#VERSION     : 1.0
#TITLE       : Spectrum 5
#DATE        : 31-JAN-2022
#TIME        : 02:59
#OWNER       :
#NPOINTS     : 2048.0
#NCOLUMNS    : 1.0
#XUNITS      : keV
#YUNITS      : counts
#DATATYPE    : XY
#XPERCHAN    : 0.01
#OFFSET      : -0.2
#SIGNALTYPE  : EDS
#CHOFFSET    : 20.0
#LIVETIME    : 120.0
#REALTIME    : 160.727
#BEAMKV      : 200.0
#MAGCAM      : 100000.0
#XTILTSTGE   : 0.0
#AZIMANGLE   : 0.0
#ELEVANGLE   : 18.6
#XPOSITION mm: 0.0000
#YPOSITION mm: 0.0000
#ZPOSITION mm: 0.0000
##OXINSTPT   : 4
##OXINSTSTROB: 47.26
##OXINSTELEMS: 26,14,50
##OXINSTLABEL: 26, 6.404, Fe
##OXINSTLABEL: 26, 7.058, Fe
##OXINSTLABEL: 26, 0.705, Fe
##OXINSTLABEL: 26, 0.628, Fe
##OXINSTLABEL: 14, 1.740, Si
##OXINSTLABEL: 50, 3.444, Sn
##OXINSTLABEL: 50, 3.666, Sn
##OXINSTLABEL: 50, 3.905, Sn
##OXINSTLABEL: 50, 3.272, Sn
##OXINSTLABEL: 50, 4.131, Sn
##OXINSTLABEL: 50, 4.377, Sn
##OXINSTLABEL: 50, 3.045, Sn
##OXINSTLABEL: 50, 0.397, Sn
#SPECTRUM    : Spectral Data Starts Here
-0.20000, 0.0
-0.13000, 0.0
-0.06000, 13.0
0.01000, 3742.0
0.08000, 2799.0
0.15000, 2027.0
0.22000, 8238.0
0.29000, 39678.0
0.36000, 1134.0
0.43000, 1929.0
0.50000, 33418.0
0.57000, 10049.0
0.64000, 1992.0
0.71000, 8686.0
0.78000, 13271.0
0.85000, 103999.0
0.92000, 13228.0
0.99000, 1829.0
1.06000, 1471.0
1.13000, 1647.0
1.20000, 1348.0
1.27000, 1321.0
1.34000, 1353.0
1.41000, 1374.0
1.48000, 1334.0
1.55000, 1333.0
1.62000, 1320.0
1.69000, 1704.0
1.76000, 1913.0
1.83000, 1221.0
1.90000, 1177.0
1.97000, 1087.0
2.04000, 1126.0
2.11000, 1026.0
2.18000, 1088.0
2.25000, 1517.0
2.32000, 1865.0
2.39000, 1550.0
2.46000, 1171.0
2.53000, 1018.0
2.60000, 1129.0
2.67000, 1013.0
2.74000, 877.0
2.81000, 838.0
2.88000, 830.0
2.95000, 807.0
3.02000, 723.0
3.09000, 735.0
3.16000, 738.0
3.23000, 632.0
3.30000, 687.0
3.37000, 642.0
3.44000, 626.0
3.51000, 623.0
3.58000, 609.0
3.65000, 570.0
3.72000, 598.0
3.79000, 540.0
3.86000, 562.0
3.93000, 534.0
4.00000, 503.0
4.07000, 523.0
4.14000, 501.0
4.21000, 511.0
4.28000, 503.0
4.35000, 493.0
4.42000, 456.0
4.49000, 495.0
4.56000, 497.0
4.63000, 476.0
4.70000, 463.0
4.77000, 422.0
4.84000, 426.0
4.91000, 422.0
4.98000, 443.0
5.05000, 412.0
5.12000, 436.0
5.19000, 385.0
5.26000, 397.0
5.33000, 416.0
5.40000, 438.0
5.47000, 421.0
5.54000, 389.0
5.61000, 407.0
5.68000, 602.0
5.75000, 635.0
5.82000, 393.0
5.89000, 354.0
5.96000, 380.0
6.03000, 366.0
6.10000, 366.0
6.17000, 335.0
6.24000, 374.0
6.31000, 444.0
6.38000, 611.0
6.45000, 492.0
6.52000, 396.0
6.59000, 329.0
6.66000, 331.0
6.73000, 338.0
6.80000, 319.0
6.87000, 401.0
6.94000, 469.0
7.01000, 445.0
7.08000, 398.0
7.15000, 515.0
7.22000, 627.0
7.29000, 2645.0
7.36000, 25635.0
7.43000, 89721.0
7.50000, 84668.0
7.57000, 21807.0
7.64000, 2299.0
7.71000, 1006.0
7.78000, 719.0
7.85000, 504.0
7.92000, 591.0
7.99000, 759.0
8.06000, 966.0
8.13000, 3037.0
8.20000, 10508.0
8.27000, 13595.0
8.34000, 6036.0
8.41000, 1147.0
8.48000, 381.0
8.55000, 317.0
8.62000, 285.0
8.69000, 253.0
8.76000, 272.0
8.83000, 277.0
8.90000, 265.0
8.97000, 280.0
9.04000, 314.0
9.11000, 317.0
9.18000, 290.0
9.25000, 259.0
9.32000, 243.0
9.39000, 258.0
9.46000, 243.0
9.53000, 223.0
9.60000, 255.0
9.67000, 285.0
9.74000, 314.0
9.81000, 275.0
9.88000, 245.0
9.95000, 236.0
10.02000, 249.0
10.09000, 223.0
10.16000, 228.0
10.23000, 238.0
10.30000, 209.0
10.37000, 233.0
10.44000, 221.0
10.51000, 230.0
10.58000, 239.0
10.65000, 206.0
10.72000, 209.0
10.79000, 229.0
10.86000, 196.0
10.93000, 213.0
11.00000, 200.0
11.07000, 196.0
11.14000, 218.0
11.21000, 197.0
11.28000, 217.0
11.35000, 243.0
11.42000, 267.0
11.49000, 229.0
11.56000, 212.0
11.63000, 210.0
11.70000, 180.0
11.77000, 184.0
11.84000, 190.0
11.91000, 194.0
11.98000, 178.0
12.05000, 197.0
12.12000, 180.0
12.19000, 187.0
12.26000, 174.0
12.33000, 174.0
12.40000, 173.0
12.47000, 178.0
12.54000, 160.0
12.61000, 174.0
12.68000, 170.0
12.75000, 168.0
12.82000, 176.0
12.89000, 146.0
12.96000, 179.0
13.03000, 158.0
13.10000, 170.0
13.17000, 159.0
13.24000, 175.0
13.31000, 160.0
13.38000, 147.0
13.45000, 132.0
13.52000, 141.0
13.59000, 153.0
13.66000, 153.0
13.73000, 140.0
13.80000, 154.0
13.87000, 159.0
13.94000, 159.0
14.01000, 161.0
14.08000, 143.0
14.15000, 146.0
14.22000, 136.0
14.29000, 140.0
14.36000, 143.0
14.43000, 147.0
14.50000, 125.0
14.57000, 146.0
14.64000, 145.0
14.71000, 167.0
14.78000, 242.0
14.85000, 489.0
14.92000, 677.0
14.99000, 516.0
15.06000, 274.0
15.13000, 167.0
15.20000, 130.0
15.27000, 117.0
15.34000, 113.0
15.41000, 122.0
15.48000, 139.0
15.55000, 134.0
15.62000, 213.0
15.69000, 252.0
15.76000, 263.0
15.83000, 184.0
15.90000, 141.0
15.97000, 92.0
16.04000, 107.0
16.11000, 95.0
16.18000, 105.0
16.25000, 106.0
16.32000, 125.0
16.39000, 111.0
16.46000, 109.0
16.53000, 109.0
16.60000, 118.0
16.67000, 103.0
16.74000, 97.0
16.81000, 106.0
16.88000, 98.0
16.95000, 114.0
17.02000, 91.0
17.09000, 99.0
17.16000, 191.0
17.23000, 450.0
17.30000, 917.0
17.37000, 1386.0
17.44000, 1335.0
17.51000, 916.0
17.58000, 374.0
17.65000, 166.0
17.72000, 89.0
17.79000, 111.0
17.86000, 85.0
17.93000, 79.0
18.00000, 67.0
18.07000, 82.0
18.14000, 80.0
18.21000, 89.0
18.28000, 90.0
18.35000, 88.0
18.42000, 77.0
18.49000, 72.0
18.56000, 84.0
18.63000, 70.0
18.70000, 70.0
18.77000, 82.0
18.84000, 66.0
18.91000, 77.0
18.98000, 75.0
19.05000, 70.0
19.12000, 74.0
19.19000, 67.0
19.26000, 76.0
19.33000, 86.0
19.40000, 129.0
19.47000, 211.0
19.54000, 263.0
19.61000, 237.0
19.68000, 148.0
19.75000, 94.0
19.82000, 80.0
19.89000, 94.0
19.96000, 84.0
20.03000, 63.0
20.10000, 46.0
20.17000, 48.0
20.24000, 50.0
20.27000, 54.0
#ENDOFDATA   :